onset	duration	trial_type	accuracy	response_time	A_stim	B_stim
0.0	4.8	6	1	0.952	i.bmp	r.bmp
4.8089999999999975	4.8	3	0	1.106	nuss.bmp	zus.bmp
9.619	4.4	3	0	1.518	slearn.bmp	zurn.bmp
14.027000000000001	4.0	3	1	0.99	plirk.bmp	swerk.bmp
18.035000000000004	4.0	3	1	0.953	pault.bmp	zalt.bmp
22.043	4.4	6	1	0.908	a.bmp	b.bmp
26.451999999999998	4.0	6	1	0.965	e.bmp	f.bmp
30.46	4.0	4	0	1.214	kearth.bmp	geath.bmp
34.468	4.8	4	1	1.121	preath.bmp	shworth.bmp
39.277	4.0	1	1	0.866	speal.bmp	cheal.bmp
43.285	4.8	5	1	1.445	blackcross.bmp	blackcross.bmp
48.095	4.4	6	1	1.169	w.bmp	e.bmp
52.504000000000005	4.4	2	0	0.853	crove.bmp	swove.bmp
56.912000000000006	4.4	3	1	1.139	dite.bmp	vight.bmp
61.321	4.0	2	0	0.964	creath.bmp	steath.bmp
65.32900000000001	4.0	3	1	0.924	kreens.bmp	speans.bmp
69.337	4.0	5	1	1.757	blackcross.bmp	blackcross.bmp
73.345	4.0	5	1	1.459	blackcross.bmp	blackcross.bmp
77.353	4.4	5	1	1.496	blackcross.bmp	blackcross.bmp
81.762	4.4	4	1	0.892	pread.bmp	slear.bmp
86.17	4.4	3	1	1.111	mide.bmp	nied.bmp
90.57900000000001	4.8	6	1	1.329	z.bmp	g.bmp
95.389	4.8	3	1	1.015	mense.bmp	shence.bmp
100.198	4.4	2	0	n/a	snull.bmp	chull.bmp
104.60700000000001	4.0	1	1	0.67	zite.bmp	pite.bmp
108.615	4.8	1	1	0.814	plapse.bmp	dapse.bmp
113.42399999999999	4.0	1	0	1.141	slutch.bmp	putch.bmp
117.432	4.0	5	1	1.744	blackcross.bmp	blackcross.bmp
121.44000000000001	4.0	5	1	1.68	blackcross.bmp	blackcross.bmp
125.448	4.0	5	1	1.626	blackcross.bmp	blackcross.bmp
129.45600000000002	4.8	2	0	1.507	nouth.bmp	scouth.bmp
134.265	4.4	6	1	1.112	y.bmp	o.bmp
138.67399999999998	4.8	3	1	0.911	splirt.bmp	furt.bmp
143.48399999999998	4.0	6	1	0.838	v.bmp	w.bmp
147.49200000000002	4.8	5	1	1.37	blackcross.bmp	blackcross.bmp
152.301	4.8	3	1	0.945	durf.bmp	merf.bmp
157.111	4.4	1	1	0.95	punge.bmp	crunge.bmp
161.519	4.8	5	1	1.938	blackcross.bmp	blackcross.bmp
166.329	4.8	5	1	1.928	blackcross.bmp	blackcross.bmp
171.13799999999998	4.8	5	1	1.537	blackcross.bmp	blackcross.bmp
175.94799999999998	4.0	5	1	1.546	blackcross.bmp	blackcross.bmp
179.95600000000002	4.8	5	1	1.594	blackcross.bmp	blackcross.bmp
184.765	4.0	2	0	1.224	twear.bmp	zear.bmp
188.77300000000002	4.4	1	1	1.029	pritz.bmp	vitz.bmp
193.18200000000002	4.0	2	0	1.065	spomb.bmp	clomb.bmp
197.19	4.8	1	1	0.823	snerge.bmp	gerge.bmp
202.0	4.8	5	1	1.791	blackcross.bmp	blackcross.bmp
206.80900000000003	4.4	6	1	1.122	v.bmp	m.bmp
211.21800000000002	4.8	4	1	1.241	shwarp.bmp	larm.bmp
216.027	4.0	2	0	1.1	larp.bmp	swarp.bmp
220.03500000000003	4.8	6	1	1.213	k.bmp	l.bmp
224.84500000000003	4.0	4	1	0.879	sull.bmp	trow.bmp
228.853	4.4	3	1	0.962	rith.bmp	nyth.bmp
233.26100000000002	4.4	4	1	0.863	palve.bmp	smove.bmp
237.67000000000002	4.0	2	0	1.158	shwarm.bmp	varm.bmp
241.678	4.0	4	1	1.055	zarp.bmp	twarm.bmp
245.68600000000004	4.8	5	1	1.36	blackcross.bmp	blackcross.bmp
250.49600000000004	4.8	4	0	3.454	glown.bmp	stomb.bmp
255.305	4.0	5	1	2.043	blackcross.bmp	blackcross.bmp
259.313	4.4	2	0	0.927	nearth.bmp	fearth.bmp
263.72200000000004	4.4	1	1	0.822	flirk.bmp	slirk.bmp
268.13	4.8	3	1	1.345	poat.bmp	wote.bmp
272.94	4.4	4	1	1.137	smow.bmp	vomb.bmp
277.349	4.4	5	1	1.533	blackcross.bmp	blackcross.bmp
281.757	4.0	3	1	1.158	twapse.bmp	praps.bmp
285.76500000000004	4.4	5	1	1.453	blackcross.bmp	blackcross.bmp
290.17400000000004	4.8	2	0	0.856	vose.bmp	plose.bmp
294.98400000000004	4.0	6	1	1.422	y.bmp	z.bmp
298.992	4.4	2	0	0.831	sworth.bmp	horth.bmp
303.40000000000003	4.4	5	1	1.58	blackcross.bmp	blackcross.bmp
307.809	4.8	4	1	0.852	plear.bmp	zour.bmp
312.619	4.4	2	0	1.325	tood.bmp	plood.bmp
317.027	4.4	1	1	0.899	sprune.bmp	yune.bmp
321.43600000000004	4.0	6	1	1.278	h.bmp	p.bmp
325.444	4.8	1	1	1.229	sterb.bmp	cherb.bmp
330.25300000000004	4.0	3	1	0.844	britz.bmp	swits.bmp
334.261	4.4	5	1	1.552	blackcross.bmp	blackcross.bmp
338.67	4.0	2	0	0.914	shrase.bmp	flase.bmp
342.678	4.0	1	1	0.713	brith.bmp	spith.bmp
346.68600000000004	4.8	5	1	1.372	blackcross.bmp	blackcross.bmp
351.49600000000004	4.4	5	1	1.428	blackcross.bmp	blackcross.bmp
355.904	4.8	1	1	0.746	yoat.bmp	zoat.bmp
360.714	4.8	2	0	0.906	grost.bmp	nost.bmp
365.523	5.2	5	1	1.435	blackcross.bmp	blackcross.bmp
