onset	duration	trial_type	accuracy	response_time	A_stim	B_stim
0.0	4.0	2	1	2.18	slour.bmp	vour.bmp
3.9970000000000034	4.0	5	1	1.345	blackcross.bmp	blackcross.bmp
7.997000000000003	4.0	6	1	0.541	a.bmp	s.bmp
11.997000000000003	4.0	3	0	1.212	reash.bmp	sliche.bmp
15.997000000000003	4.4	5	1	1.475	blackcross.bmp	blackcross.bmp
20.397000000000002	4.4	6	1	0.902	i.bmp	j.bmp
24.797	4.4	1	1	1.179	treens.bmp	smeens.bmp
29.197	4.4	1	1	1.535	vuss.bmp	duss.bmp
33.596999999999994	4.8	6	1	0.964	f.bmp	n.bmp
38.396	4.8	1	1	0.857	zurf.bmp	hurf.bmp
43.196	4.8	5	1	1.17	blackcross.bmp	blackcross.bmp
47.995999999999995	4.8	1	1	0.863	crelm.bmp	melm.bmp
52.79599999999999	4.0	2	0	0.886	clease.bmp	prease.bmp
56.79599999999999	4.0	1	1	0.961	twirt.bmp	stirt.bmp
60.79599999999999	4.4	3	0	n/a	slurl.bmp	dirl.bmp
65.196	4.4	4	0	0.653	blease.bmp	seaf.bmp
69.59599999999999	4.4	5	1	1.432	blackcross.bmp	blackcross.bmp
73.996	4.8	5	1	1.117	blackcross.bmp	blackcross.bmp
78.795	4.8	4	1	1.039	quarf.bmp	ralve.bmp
83.595	4.8	6	0	0.617	m.bmp	n.bmp
88.395	4.8	1	1	0.957	clurl.bmp	turl.bmp
93.195	4.8	6	1	0.609	r.bmp	s.bmp
97.99499999999999	4.0	5	1	1.2	blackcross.bmp	blackcross.bmp
101.99499999999999	4.0	3	0	1.254	brunge.bmp	skonge.bmp
105.99499999999999	4.0	4	1	1.014	strough.bmp	wouth.bmp
109.99499999999999	4.4	6	1	1.374	l.bmp	d.bmp
114.39399999999999	4.4	5	1	1.334	blackcross.bmp	blackcross.bmp
118.794	4.4	5	1	1.146	blackcross.bmp	blackcross.bmp
123.194	4.4	5	1	1.394	blackcross.bmp	blackcross.bmp
127.59400000000001	4.8	5	1	1.23	blackcross.bmp	blackcross.bmp
132.394	4.8	1	1	1.178	crense.bmp	nense.bmp
137.19400000000002	4.8	5	0	n/a	blackcross.bmp	blackcross.bmp
141.994	4.0	2	0	n/a	twough.bmp	drough.bmp
145.994	4.0	2	1	0.907	twarf.bmp	starf.bmp
149.994	4.0	5	1	1.325	blackcross.bmp	blackcross.bmp
153.99300000000002	4.0	2	0	1.054	meaf.bmp	teaf.bmp
157.99300000000002	4.0	6	1	0.707	t.bmp	u.bmp
161.99300000000002	4.4	5	1	1.234	blackcross.bmp	blackcross.bmp
166.393	4.4	5	1	1.176	blackcross.bmp	blackcross.bmp
170.793	4.4	5	1	1.13	blackcross.bmp	blackcross.bmp
175.193	4.4	5	1	1.21	blackcross.bmp	blackcross.bmp
179.59300000000002	4.4	5	1	1.21	blackcross.bmp	blackcross.bmp
183.99300000000002	4.8	4	1	1.081	vood.bmp	shase.bmp
188.793	4.8	3	1	0.914	glutch.bmp	nuch.bmp
193.592	4.8	4	1	1.062	plange.bmp	jase.bmp
198.39200000000002	4.8	5	1	1.14	blackcross.bmp	blackcross.bmp
203.192	4.0	6	1	1.059	c.bmp	u.bmp
207.192	4.4	2	0	1.247	slange.bmp	prange.bmp
211.592	4.0	1	1	1.156	vearn.bmp	glearn.bmp
215.592	4.0	2	0	1.104	zalve.bmp	walve.bmp
219.592	4.0	6	1	0.848	j.bmp	b.bmp
223.592	4.0	4	1	0.985	sharf.bmp	twove.bmp
227.592	4.0	3	0	0.702	chelm.bmp	swealm.bmp
231.59100000000004	4.0	5	1	1.653	blackcross.bmp	blackcross.bmp
235.59100000000004	4.0	5	1	1.202	blackcross.bmp	blackcross.bmp
239.59100000000004	4.4	2	0	1.045	plown.bmp	rown.bmp
243.991	4.4	5	1	1.363	blackcross.bmp	blackcross.bmp
248.391	4.4	5	1	1.7	blackcross.bmp	blackcross.bmp
252.79100000000003	4.4	2	0	1.483	glead.bmp	jead.bmp
257.191	4.4	3	0	n/a	shrune.bmp	hoon.bmp
261.591	4.4	3	1	2.807	pript.bmp	shrypt.bmp
265.991	4.4	6	1	0.778	g.bmp	h.bmp
270.39	4.4	4	1	0.71	splour.bmp	morth.bmp
274.78999999999996	4.4	5	1	1.375	blackcross.bmp	blackcross.bmp
279.19	4.4	4	1	1.016	learth.bmp	plost.bmp
283.59	4.8	4	1	0.978	neaf.bmp	shrease.bmp
288.39	4.8	4	1	1.584	scose.bmp	brost.bmp
293.19	4.8	1	1	1.373	plipt.bmp	bipt.bmp
297.99	4.8	6	1	1.343	o.bmp	p.bmp
302.78999999999996	4.8	5	1	1.36	blackcross.bmp	blackcross.bmp
307.59	4.8	4	1	0.974	spouth.bmp	zull.bmp
312.389	4.0	4	1	0.955	drose.bmp	crange.bmp
316.389	4.0	1	1	0.962	swault.bmp	lault.bmp
320.389	4.0	3	1	1.592	derb.bmp	shurb.bmp
324.389	4.0	3	0	n/a	nerge.bmp	yurge.bmp
328.389	4.4	3	0	n/a	yeal.bmp	sheel.bmp
332.789	4.4	4	1	0.741	glough.bmp	vown.bmp
337.18899999999996	4.4	1	1	1.013	twide.bmp	stide.bmp
341.589	4.4	6	1	0.79	c.bmp	d.bmp
345.989	4.8	1	1	0.985	preash.bmp	sleash.bmp
350.78799999999995	4.8	6	1	1.021	k.bmp	t.bmp
355.58799999999997	4.8	2	1	1.068	zow.bmp	shrow.bmp
360.388	4.8	4	1	0.993	vead.bmp	slood.bmp
365.188	4.8	5	1	1.88	blackcross.bmp	blackcross.bmp
