onset	duration	trial_type	accuracy	response_time	A_stim	B_stim
0.0	4.0	2	0	1.513	slour.bmp	vour.bmp
4.007999999999996	4.0	5	1	1.621	blackcross.bmp	blackcross.bmp
8.015999999999998	4.0	6	1	0.779	a.bmp	s.bmp
12.024000000000001	4.0	3	0	0.844	reash.bmp	sliche.bmp
16.031	4.4	5	1	1.382	blackcross.bmp	blackcross.bmp
20.439999999999998	4.4	6	1	0.939	i.bmp	j.bmp
24.848999999999997	4.4	1	1	0.77	treens.bmp	smeens.bmp
29.257999999999996	4.4	1	1	0.72	vuss.bmp	duss.bmp
33.666	4.8	6	1	0.82	f.bmp	n.bmp
38.476	4.8	1	1	0.79	zurf.bmp	hurf.bmp
43.285	4.8	5	1	1.323	blackcross.bmp	blackcross.bmp
48.095	4.8	1	1	1.046	crelm.bmp	melm.bmp
52.903999999999996	4.0	2	0	1.158	clease.bmp	prease.bmp
56.91199999999999	4.0	1	1	0.821	twirt.bmp	stirt.bmp
60.92	4.4	3	1	0.8	slurl.bmp	dirl.bmp
65.329	4.4	4	1	1.22	blease.bmp	seaf.bmp
69.738	4.4	5	1	1.277	blackcross.bmp	blackcross.bmp
74.14699999999999	4.8	5	1	1.242	blackcross.bmp	blackcross.bmp
78.956	4.8	4	1	0.895	quarf.bmp	ralve.bmp
83.76599999999999	4.8	6	1	1.092	m.bmp	n.bmp
88.575	4.8	1	1	0.906	clurl.bmp	turl.bmp
93.38499999999999	4.8	6	1	0.736	r.bmp	s.bmp
98.19399999999999	4.0	5	1	1.355	blackcross.bmp	blackcross.bmp
102.202	4.0	3	0	1.773	brunge.bmp	skonge.bmp
106.21000000000001	4.0	4	1	1.121	strough.bmp	wouth.bmp
110.21799999999999	4.4	6	1	0.952	l.bmp	d.bmp
114.62700000000001	4.4	5	1	1.451	blackcross.bmp	blackcross.bmp
119.035	4.4	5	1	1.33	blackcross.bmp	blackcross.bmp
123.44399999999999	4.4	5	1	1.246	blackcross.bmp	blackcross.bmp
127.85300000000001	4.8	5	1	1.266	blackcross.bmp	blackcross.bmp
132.662	4.8	1	1	0.903	crense.bmp	nense.bmp
137.472	4.8	5	1	1.329	blackcross.bmp	blackcross.bmp
142.281	4.0	2	0	1.3	twough.bmp	drough.bmp
146.289	4.0	2	0	0.819	twarf.bmp	starf.bmp
150.297	4.0	5	1	1.348	blackcross.bmp	blackcross.bmp
154.305	4.0	2	0	0.777	meaf.bmp	teaf.bmp
158.313	4.0	6	1	0.87	t.bmp	u.bmp
162.321	4.4	5	1	1.361	blackcross.bmp	blackcross.bmp
166.73	4.4	5	1	1.286	blackcross.bmp	blackcross.bmp
171.139	4.4	5	1	1.34	blackcross.bmp	blackcross.bmp
175.547	4.4	5	1	1.456	blackcross.bmp	blackcross.bmp
179.956	4.4	5	1	1.306	blackcross.bmp	blackcross.bmp
184.365	4.8	4	1	0.78	vood.bmp	shase.bmp
189.174	4.8	3	1	0.772	glutch.bmp	nuch.bmp
193.984	4.8	4	1	0.939	plange.bmp	jase.bmp
198.793	4.8	5	1	1.383	blackcross.bmp	blackcross.bmp
203.603	4.0	6	1	0.976	c.bmp	u.bmp
207.611	4.4	2	0	0.816	slange.bmp	prange.bmp
212.019	4.0	1	1	1.059	vearn.bmp	glearn.bmp
216.027	4.0	2	0	0.741	zalve.bmp	walve.bmp
220.035	4.0	6	1	0.827	j.bmp	b.bmp
224.04299999999998	4.0	4	1	0.888	sharf.bmp	twove.bmp
228.05100000000002	4.0	3	0	1.044	chelm.bmp	swealm.bmp
232.059	4.0	5	1	1.309	blackcross.bmp	blackcross.bmp
236.06699999999998	4.0	5	1	1.299	blackcross.bmp	blackcross.bmp
240.07500000000002	4.4	2	0	1.467	plown.bmp	rown.bmp
244.484	4.4	5	1	1.372	blackcross.bmp	blackcross.bmp
248.89200000000002	4.4	5	1	1.336	blackcross.bmp	blackcross.bmp
253.30100000000002	4.4	2	0	0.823	glead.bmp	jead.bmp
257.71000000000004	4.4	3	1	0.959	shrune.bmp	hoon.bmp
262.119	4.4	3	1	1.02	pript.bmp	shrypt.bmp
266.52700000000004	4.4	6	1	0.722	g.bmp	h.bmp
270.93600000000004	4.4	4	1	0.985	splour.bmp	morth.bmp
275.345	4.4	5	1	1.407	blackcross.bmp	blackcross.bmp
279.754	4.4	4	1	0.925	learth.bmp	plost.bmp
284.16200000000003	4.8	4	1	1.577	neaf.bmp	shrease.bmp
288.972	4.8	4	1	1.302	scose.bmp	brost.bmp
293.78099999999995	4.8	1	1	0.779	plipt.bmp	bipt.bmp
298.591	4.8	6	1	1.047	o.bmp	p.bmp
303.4	4.8	5	1	1.308	blackcross.bmp	blackcross.bmp
308.21000000000004	4.8	4	1	0.85	spouth.bmp	zull.bmp
313.019	4.0	4	1	1.746	drose.bmp	crange.bmp
317.02700000000004	4.0	1	1	0.924	swault.bmp	lault.bmp
321.03499999999997	4.0	3	1	0.943	derb.bmp	shurb.bmp
325.043	4.0	3	1	0.787	nerge.bmp	yurge.bmp
329.05100000000004	4.4	3	1	0.826	yeal.bmp	sheel.bmp
333.46000000000004	4.4	4	1	0.851	glough.bmp	vown.bmp
337.869	4.4	1	1	0.743	twide.bmp	stide.bmp
342.27700000000004	4.4	6	1	0.772	c.bmp	d.bmp
346.68600000000004	4.8	1	1	0.808	preash.bmp	sleash.bmp
351.496	4.8	6	1	0.78	k.bmp	t.bmp
356.30499999999995	4.8	2	0	0.936	zow.bmp	shrow.bmp
361.115	4.8	4	1	0.909	vead.bmp	slood.bmp
365.924	4.8	5	1	1.339	blackcross.bmp	blackcross.bmp
