onset	duration	trial_type	accuracy	response_time	A_stim	B_stim
0.0	4.8	6	1	1.452	i.bmp	r.bmp
4.8089999999999975	4.8	3	1	1.409	nuss.bmp	zus.bmp
9.619	4.4	3	1	1.551	slearn.bmp	zurn.bmp
14.027000000000001	4.0	3	0	2.11	plirk.bmp	swerk.bmp
18.034999999999997	4.0	3	1	1.487	pault.bmp	zalt.bmp
22.043	4.4	6	1	1.444	a.bmp	b.bmp
26.451999999999998	4.0	6	1	1.669	e.bmp	f.bmp
30.46	4.0	4	1	1.516	kearth.bmp	geath.bmp
34.467999999999996	4.8	4	1	1.56	preath.bmp	shworth.bmp
39.276999999999994	4.0	1	1	1.477	speal.bmp	cheal.bmp
43.285000000000004	4.8	5	1	1.728	blackcross.bmp	blackcross.bmp
48.094	4.4	6	1	1.399	w.bmp	e.bmp
52.50299999999999	4.4	2	0	1.583	crove.bmp	swove.bmp
56.912	4.4	3	1	1.961	dite.bmp	vight.bmp
61.32	4.0	2	1	1.876	creath.bmp	steath.bmp
65.328	4.0	3	1	1.494	kreens.bmp	speans.bmp
69.33600000000001	4.0	5	1	1.879	blackcross.bmp	blackcross.bmp
73.344	4.0	5	1	1.596	blackcross.bmp	blackcross.bmp
77.352	4.4	5	1	1.451	blackcross.bmp	blackcross.bmp
81.75999999999999	4.4	4	1	1.668	pread.bmp	slear.bmp
86.16900000000001	4.4	3	1	1.716	mide.bmp	nied.bmp
90.578	4.8	6	1	1.509	z.bmp	g.bmp
95.387	4.8	3	1	1.864	mense.bmp	shence.bmp
100.197	4.4	2	0	1.71	snull.bmp	chull.bmp
104.60499999999999	4.0	1	1	1.641	zite.bmp	pite.bmp
108.613	4.8	1	1	1.69	plapse.bmp	dapse.bmp
113.423	4.0	1	1	1.634	slutch.bmp	putch.bmp
117.42999999999998	4.0	5	1	1.917	blackcross.bmp	blackcross.bmp
121.43799999999999	4.0	5	1	1.451	blackcross.bmp	blackcross.bmp
125.446	4.0	5	1	1.506	blackcross.bmp	blackcross.bmp
129.45399999999998	4.8	2	0	1.76	nouth.bmp	scouth.bmp
134.26399999999998	4.4	6	1	1.447	y.bmp	o.bmp
138.672	4.8	3	1	1.913	splirt.bmp	furt.bmp
143.482	4.0	6	1	1.457	v.bmp	w.bmp
147.48999999999998	4.8	5	1	1.584	blackcross.bmp	blackcross.bmp
152.299	4.8	3	1	1.656	durf.bmp	merf.bmp
157.108	4.4	1	1	1.539	punge.bmp	crunge.bmp
161.517	4.8	5	1	1.739	blackcross.bmp	blackcross.bmp
166.327	4.8	5	1	1.709	blackcross.bmp	blackcross.bmp
171.136	4.8	5	1	1.553	blackcross.bmp	blackcross.bmp
175.945	4.0	5	1	1.796	blackcross.bmp	blackcross.bmp
179.953	4.8	5	1	1.646	blackcross.bmp	blackcross.bmp
184.763	4.0	2	0	1.637	twear.bmp	zear.bmp
188.771	4.4	1	1	1.59	pritz.bmp	vitz.bmp
193.179	4.0	2	1	1.369	spomb.bmp	clomb.bmp
197.18699999999998	4.8	1	1	1.676	snerge.bmp	gerge.bmp
201.99699999999999	4.8	5	1	1.675	blackcross.bmp	blackcross.bmp
206.80599999999998	4.4	6	1	1.59	v.bmp	m.bmp
211.215	4.8	4	1	1.581	shwarp.bmp	larm.bmp
216.024	4.0	2	0	1.745	larp.bmp	swarp.bmp
220.03199999999998	4.8	6	1	1.418	k.bmp	l.bmp
224.84099999999998	4.0	4	1	1.586	sull.bmp	trow.bmp
228.84900000000002	4.4	3	0	1.961	rith.bmp	nyth.bmp
233.258	4.4	4	1	1.587	palve.bmp	smove.bmp
237.667	4.0	2	0	1.535	shwarm.bmp	varm.bmp
241.674	4.0	4	1	1.652	zarp.bmp	twarm.bmp
245.682	4.8	5	1	1.736	blackcross.bmp	blackcross.bmp
250.492	4.8	4	0	1.913	glown.bmp	stomb.bmp
255.30100000000002	4.0	5	1	1.697	blackcross.bmp	blackcross.bmp
259.309	4.4	2	0	1.745	nearth.bmp	fearth.bmp
263.718	4.4	1	1	1.515	flirk.bmp	slirk.bmp
268.12600000000003	4.8	3	1	1.667	poat.bmp	wote.bmp
272.93600000000004	4.4	4	1	1.557	smow.bmp	vomb.bmp
277.345	4.4	5	1	1.716	blackcross.bmp	blackcross.bmp
281.75300000000004	4.0	3	1	1.694	twapse.bmp	praps.bmp
285.761	4.4	5	1	1.646	blackcross.bmp	blackcross.bmp
290.17	4.8	2	0	1.673	vose.bmp	plose.bmp
294.97900000000004	4.0	6	1	1.374	y.bmp	z.bmp
298.987	4.4	2	1	1.533	sworth.bmp	horth.bmp
303.396	4.4	5	1	1.653	blackcross.bmp	blackcross.bmp
307.80400000000003	4.8	4	1	1.573	plear.bmp	zour.bmp
312.61400000000003	4.4	2	0	1.573	tood.bmp	plood.bmp
317.02200000000005	4.4	1	1	1.736	sprune.bmp	yune.bmp
321.43100000000004	4.0	6	1	1.634	h.bmp	p.bmp
325.439	4.8	1	1	1.738	sterb.bmp	cherb.bmp
330.24800000000005	4.0	3	1	1.604	britz.bmp	swits.bmp
334.25600000000003	4.4	5	1	2.168	blackcross.bmp	blackcross.bmp
338.665	4.0	2	0	1.61	shrase.bmp	flase.bmp
342.673	4.0	1	0	1.558	brith.bmp	spith.bmp
346.68100000000004	4.8	5	1	1.65	blackcross.bmp	blackcross.bmp
351.49	4.4	5	1	1.698	blackcross.bmp	blackcross.bmp
355.899	4.8	1	1	1.687	yoat.bmp	zoat.bmp
360.708	4.8	2	0	1.575	grost.bmp	nost.bmp
365.51800000000003	5.2	5	1	1.603	blackcross.bmp	blackcross.bmp
