onset	duration	trial_type	accuracy	response_time	A_stim	B_stim
0.0	4.8	6	1	1.01	i.bmp	r.bmp
4.810000000000002	4.8	3	0	1.345	nuss.bmp	zus.bmp
9.619	4.4	3	1	1.269	slearn.bmp	zurn.bmp
14.027999999999999	4.0	3	1	1.103	plirk.bmp	swerk.bmp
18.036	4.0	3	0	1.57	pault.bmp	zalt.bmp
22.043999999999997	4.4	6	1	1.254	a.bmp	b.bmp
26.451999999999998	4.0	6	1	1.337	e.bmp	f.bmp
30.46	4.0	4	1	1.628	kearth.bmp	geath.bmp
34.468	4.8	4	1	1.316	preath.bmp	shworth.bmp
39.278	4.0	1	1	1.455	speal.bmp	cheal.bmp
43.285999999999994	4.8	5	1	1.554	blackcross.bmp	blackcross.bmp
48.095000000000006	4.4	6	1	1.144	w.bmp	e.bmp
52.504	4.4	2	0	3.134	crove.bmp	swove.bmp
56.913000000000004	4.4	3	1	1.092	dite.bmp	vight.bmp
61.321999999999996	4.0	2	1	1.931	creath.bmp	steath.bmp
65.33000000000001	4.0	3	1	1.484	kreens.bmp	speans.bmp
69.33699999999999	4.0	5	1	1.106	blackcross.bmp	blackcross.bmp
73.345	4.0	5	1	1.266	blackcross.bmp	blackcross.bmp
77.35300000000001	4.4	5	1	1.21	blackcross.bmp	blackcross.bmp
81.762	4.4	4	1	1.129	pread.bmp	slear.bmp
86.17099999999999	4.4	3	1	1.729	mide.bmp	nied.bmp
90.58000000000001	4.8	6	1	1.241	z.bmp	g.bmp
95.38900000000001	4.8	3	1	2.211	mense.bmp	shence.bmp
100.19899999999998	4.4	2	0	1.532	snull.bmp	chull.bmp
104.607	4.0	1	1	1.411	zite.bmp	pite.bmp
108.61499999999998	4.8	1	1	1.403	plapse.bmp	dapse.bmp
113.42499999999998	4.0	1	1	2.362	slutch.bmp	putch.bmp
117.43299999999999	4.0	5	1	1.231	blackcross.bmp	blackcross.bmp
121.441	4.0	5	1	1.35	blackcross.bmp	blackcross.bmp
125.44899999999998	4.0	5	1	1.244	blackcross.bmp	blackcross.bmp
129.457	4.8	2	0	1.911	nouth.bmp	scouth.bmp
134.266	4.4	6	1	3.178	y.bmp	o.bmp
138.67499999999998	4.8	3	0	1.13	splirt.bmp	furt.bmp
143.48399999999998	4.0	6	1	1.086	v.bmp	w.bmp
147.492	4.8	5	1	1.171	blackcross.bmp	blackcross.bmp
152.302	4.8	3	1	1.372	durf.bmp	merf.bmp
157.112	4.4	1	1	1.453	punge.bmp	crunge.bmp
161.51999999999998	4.8	5	1	1.192	blackcross.bmp	blackcross.bmp
166.32999999999998	4.8	5	1	1.197	blackcross.bmp	blackcross.bmp
171.13899999999998	4.8	5	1	1.601	blackcross.bmp	blackcross.bmp
175.94899999999998	4.0	5	1	1.275	blackcross.bmp	blackcross.bmp
179.957	4.8	5	1	1.156	blackcross.bmp	blackcross.bmp
184.766	4.0	2	0	1.131	twear.bmp	zear.bmp
188.774	4.4	1	1	1.537	pritz.bmp	vitz.bmp
193.183	4.0	2	1	2.203	spomb.bmp	clomb.bmp
197.191	4.8	1	1	1.752	snerge.bmp	gerge.bmp
202.001	4.8	5	1	1.447	blackcross.bmp	blackcross.bmp
206.81	4.4	6	1	1.456	v.bmp	m.bmp
211.219	4.8	4	1	2.0	shwarp.bmp	larm.bmp
216.028	4.0	2	0	1.305	larp.bmp	swarp.bmp
220.036	4.8	6	1	1.25	k.bmp	l.bmp
224.846	4.0	4	1	0.846	sull.bmp	trow.bmp
228.854	4.4	3	1	1.635	rith.bmp	nyth.bmp
233.26199999999997	4.4	4	1	1.677	palve.bmp	smove.bmp
237.67100000000002	4.0	2	0	1.718	shwarm.bmp	varm.bmp
241.679	4.0	4	1	1.514	zarp.bmp	twarm.bmp
245.68699999999998	4.8	5	1	1.181	blackcross.bmp	blackcross.bmp
250.49699999999999	4.8	4	1	1.262	glown.bmp	stomb.bmp
255.306	4.0	5	1	1.782	blackcross.bmp	blackcross.bmp
259.314	4.4	2	0	1.469	nearth.bmp	fearth.bmp
263.723	4.4	1	0	n/a	flirk.bmp	slirk.bmp
268.132	4.8	3	1	1.643	poat.bmp	wote.bmp
272.94100000000003	4.4	4	0	2.395	smow.bmp	vomb.bmp
277.35	4.4	5	1	1.188	blackcross.bmp	blackcross.bmp
281.759	4.0	3	0	1.865	twapse.bmp	praps.bmp
285.767	4.4	5	1	1.547	blackcross.bmp	blackcross.bmp
290.175	4.8	2	0	1.493	vose.bmp	plose.bmp
294.985	4.0	6	1	1.429	y.bmp	z.bmp
298.993	4.4	2	0	1.58	sworth.bmp	horth.bmp
303.40200000000004	4.4	5	1	1.198	blackcross.bmp	blackcross.bmp
307.81	4.8	4	1	0.916	plear.bmp	zour.bmp
312.62	4.4	2	0	1.195	tood.bmp	plood.bmp
317.029	4.4	1	1	1.306	sprune.bmp	yune.bmp
321.437	4.0	6	1	1.133	h.bmp	p.bmp
325.445	4.8	1	1	1.364	sterb.bmp	cherb.bmp
330.255	4.0	3	0	1.727	britz.bmp	swits.bmp
334.26300000000003	4.4	5	1	1.181	blackcross.bmp	blackcross.bmp
338.672	4.0	2	0	1.672	shrase.bmp	flase.bmp
342.67900000000003	4.0	1	1	1.592	brith.bmp	spith.bmp
346.687	4.8	5	1	2.165	blackcross.bmp	blackcross.bmp
351.497	4.4	5	1	1.237	blackcross.bmp	blackcross.bmp
355.906	4.8	1	1	1.493	yoat.bmp	zoat.bmp
360.71500000000003	4.8	2	0	1.87	grost.bmp	nost.bmp
365.52500000000003	5.2	5	0	n/a	blackcross.bmp	blackcross.bmp
