onset	duration	trial_type	accuracy	response_time	A_stim	B_stim
0.0	4.0	2	0	n/a	slour.bmp	vour.bmp
4.005000000000003	4.0	5	1	0.594	blackcross.bmp	blackcross.bmp
8.012999999999998	4.0	6	0	1.05	a.bmp	s.bmp
12.021	4.0	3	0	0.252	reash.bmp	sliche.bmp
16.029000000000003	4.4	5	0	0.972	blackcross.bmp	blackcross.bmp
20.438000000000002	4.4	6	1	0.602	i.bmp	j.bmp
24.846000000000004	4.4	1	1	0.027	treens.bmp	smeens.bmp
29.255000000000003	4.4	1	0	n/a	vuss.bmp	duss.bmp
33.663999999999994	4.8	6	1	0.36	f.bmp	n.bmp
38.473000000000006	4.8	1	0	n/a	zurf.bmp	hurf.bmp
43.28300000000001	4.8	5	0	n/a	blackcross.bmp	blackcross.bmp
48.092000000000006	4.8	1	1	0.108	crelm.bmp	melm.bmp
52.901	4.0	2	0	n/a	clease.bmp	prease.bmp
56.909	4.0	1	1	0.338	twirt.bmp	stirt.bmp
60.916999999999994	4.4	3	1	0.332	slurl.bmp	dirl.bmp
65.326	4.4	4	0	n/a	blease.bmp	seaf.bmp
69.73500000000001	4.4	5	0	0.167	blackcross.bmp	blackcross.bmp
74.143	4.8	5	1	0.591	blackcross.bmp	blackcross.bmp
78.953	4.8	4	0	0.096	quarf.bmp	ralve.bmp
83.762	4.8	6	0	n/a	m.bmp	n.bmp
88.572	4.8	1	0	n/a	clurl.bmp	turl.bmp
93.381	4.8	6	0	n/a	r.bmp	s.bmp
98.191	4.0	5	0	n/a	blackcross.bmp	blackcross.bmp
102.19800000000001	4.0	3	1	0.936	brunge.bmp	skonge.bmp
106.20600000000002	4.0	4	1	0.752	strough.bmp	wouth.bmp
110.214	4.4	6	1	0.648	l.bmp	d.bmp
114.62300000000002	4.4	5	0	0.07	blackcross.bmp	blackcross.bmp
119.03200000000001	4.4	5	1	0.491	blackcross.bmp	blackcross.bmp
123.44	4.4	5	1	0.514	blackcross.bmp	blackcross.bmp
127.84900000000002	4.8	5	1	0.528	blackcross.bmp	blackcross.bmp
132.65800000000002	4.8	1	1	0.147	crense.bmp	nense.bmp
137.46800000000002	4.8	5	0	n/a	blackcross.bmp	blackcross.bmp
142.27700000000002	4.0	2	0	0.09	twough.bmp	drough.bmp
146.285	4.0	2	0	0.69	twarf.bmp	starf.bmp
150.293	4.0	5	0	0.632	blackcross.bmp	blackcross.bmp
154.30100000000002	4.0	2	0	0.872	meaf.bmp	teaf.bmp
158.309	4.0	6	1	0.447	t.bmp	u.bmp
162.317	4.4	5	1	0.334	blackcross.bmp	blackcross.bmp
166.725	4.4	5	1	0.567	blackcross.bmp	blackcross.bmp
171.13400000000001	4.4	5	1	0.515	blackcross.bmp	blackcross.bmp
175.543	4.4	5	1	0.616	blackcross.bmp	blackcross.bmp
179.95100000000002	4.4	5	1	0.56	blackcross.bmp	blackcross.bmp
184.36	4.8	4	0	0.652	vood.bmp	shase.bmp
189.169	4.8	3	0	n/a	glutch.bmp	nuch.bmp
193.979	4.8	4	1	0.187	plange.bmp	jase.bmp
198.788	4.8	5	0	n/a	blackcross.bmp	blackcross.bmp
203.598	4.0	6	0	0.086	c.bmp	u.bmp
207.606	4.4	2	1	0.304	slange.bmp	prange.bmp
212.014	4.0	1	1	0.229	vearn.bmp	glearn.bmp
216.02200000000002	4.0	2	0	0.539	zalve.bmp	walve.bmp
220.03	4.0	6	0	0.392	j.bmp	b.bmp
224.03799999999998	4.0	4	1	0.33	sharf.bmp	twove.bmp
228.04600000000002	4.0	3	0	0.419	chelm.bmp	swealm.bmp
232.054	4.0	5	1	0.392	blackcross.bmp	blackcross.bmp
236.06199999999998	4.0	5	1	0.896	blackcross.bmp	blackcross.bmp
240.07000000000002	4.4	2	0	0.884	plown.bmp	rown.bmp
244.47799999999998	4.4	5	1	0.076	blackcross.bmp	blackcross.bmp
248.88700000000003	4.4	5	1	0.485	blackcross.bmp	blackcross.bmp
253.29600000000002	4.4	2	0	0.511	glead.bmp	jead.bmp
257.704	4.4	3	1	0.039	shrune.bmp	hoon.bmp
262.113	4.4	3	1	0.156	pript.bmp	shrypt.bmp
266.522	4.4	6	1	0.093	g.bmp	h.bmp
270.93	4.4	4	0	n/a	splour.bmp	morth.bmp
275.339	4.4	5	0	n/a	blackcross.bmp	blackcross.bmp
279.748	4.4	4	0	0.518	learth.bmp	plost.bmp
284.156	4.8	4	0	n/a	neaf.bmp	shrease.bmp
288.966	4.8	4	0	n/a	scose.bmp	brost.bmp
293.775	4.8	1	0	n/a	plipt.bmp	bipt.bmp
298.585	4.8	6	0	n/a	o.bmp	p.bmp
303.394	4.8	5	0	n/a	blackcross.bmp	blackcross.bmp
308.204	4.8	4	0	0.159	spouth.bmp	zull.bmp
313.013	4.0	4	0	n/a	drose.bmp	crange.bmp
317.02099999999996	4.0	1	0	0.447	swault.bmp	lault.bmp
321.029	4.0	3	1	0.286	derb.bmp	shurb.bmp
325.037	4.0	3	1	0.401	nerge.bmp	yurge.bmp
329.04499999999996	4.4	3	1	0.407	yeal.bmp	sheel.bmp
333.453	4.4	4	0	n/a	glough.bmp	vown.bmp
337.86199999999997	4.4	1	0	0.152	twide.bmp	stide.bmp
342.27099999999996	4.4	6	0	n/a	c.bmp	d.bmp
346.679	4.8	1	0	n/a	preash.bmp	sleash.bmp
351.489	4.8	6	0	n/a	k.bmp	t.bmp
356.298	4.8	2	0	n/a	zow.bmp	shrow.bmp
361.108	4.8	4	0	n/a	vead.bmp	slood.bmp
365.917	4.8	5	0	n/a	blackcross.bmp	blackcross.bmp
