onset	duration	trial_type	accuracy	response_time	A_stim	B_stim
0.0	4.0	2	0	0.759	slour.bmp	vour.bmp
4.008000000000003	4.0	5	1	1.522	blackcross.bmp	blackcross.bmp
8.015999999999998	4.0	6	1	0.822	a.bmp	s.bmp
12.024000000000001	4.0	3	1	1.085	reash.bmp	sliche.bmp
16.032000000000004	4.4	5	1	1.842	blackcross.bmp	blackcross.bmp
20.440999999999995	4.4	6	1	1.017	i.bmp	j.bmp
24.848999999999997	4.4	1	1	0.804	treens.bmp	smeens.bmp
29.258000000000003	4.4	1	1	0.863	vuss.bmp	duss.bmp
33.666999999999994	4.8	6	1	0.785	f.bmp	n.bmp
38.476000000000006	4.8	1	1	0.76	zurf.bmp	hurf.bmp
43.285999999999994	4.8	5	1	1.346	blackcross.bmp	blackcross.bmp
48.095000000000006	4.8	1	1	0.914	crelm.bmp	melm.bmp
52.904999999999994	4.0	2	0	1.662	clease.bmp	prease.bmp
56.913000000000004	4.0	1	1	0.858	twirt.bmp	stirt.bmp
60.921	4.4	3	1	1.156	slurl.bmp	dirl.bmp
65.33000000000001	4.4	4	1	0.994	blease.bmp	seaf.bmp
69.738	4.4	5	1	1.375	blackcross.bmp	blackcross.bmp
74.14699999999999	4.8	5	1	1.557	blackcross.bmp	blackcross.bmp
78.957	4.8	4	1	2.937	quarf.bmp	ralve.bmp
83.76600000000002	4.8	6	0	0.682	m.bmp	n.bmp
88.576	4.8	1	1	1.044	clurl.bmp	turl.bmp
93.38500000000002	4.8	6	1	0.671	r.bmp	s.bmp
98.19500000000002	4.0	5	1	1.277	blackcross.bmp	blackcross.bmp
102.203	4.0	3	1	1.293	brunge.bmp	skonge.bmp
106.21100000000001	4.0	4	1	1.006	strough.bmp	wouth.bmp
110.219	4.4	6	1	1.664	l.bmp	d.bmp
114.62700000000001	4.4	5	1	1.363	blackcross.bmp	blackcross.bmp
119.036	4.4	5	1	1.499	blackcross.bmp	blackcross.bmp
123.44500000000002	4.4	5	1	1.434	blackcross.bmp	blackcross.bmp
127.85400000000001	4.8	5	1	1.415	blackcross.bmp	blackcross.bmp
132.663	4.8	1	1	0.862	crense.bmp	nense.bmp
137.473	4.8	5	1	1.367	blackcross.bmp	blackcross.bmp
142.282	4.0	2	0	1.272	twough.bmp	drough.bmp
146.29000000000002	4.0	2	0	1.495	twarf.bmp	starf.bmp
150.298	4.0	5	1	2.0	blackcross.bmp	blackcross.bmp
154.306	4.0	2	0	1.007	meaf.bmp	teaf.bmp
158.31400000000002	4.0	6	1	0.877	t.bmp	u.bmp
162.322	4.4	5	1	1.772	blackcross.bmp	blackcross.bmp
166.731	4.4	5	1	1.77	blackcross.bmp	blackcross.bmp
171.139	4.4	5	1	1.516	blackcross.bmp	blackcross.bmp
175.548	4.4	5	1	1.161	blackcross.bmp	blackcross.bmp
179.957	4.4	5	1	1.824	blackcross.bmp	blackcross.bmp
184.366	4.8	4	1	0.984	vood.bmp	shase.bmp
189.175	4.8	3	0	1.929	glutch.bmp	nuch.bmp
193.985	4.8	4	1	1.055	plange.bmp	jase.bmp
198.794	4.8	5	1	1.126	blackcross.bmp	blackcross.bmp
203.604	4.0	6	1	0.744	c.bmp	u.bmp
207.612	4.4	2	0	0.883	slange.bmp	prange.bmp
212.021	4.0	1	1	0.754	vearn.bmp	glearn.bmp
216.028	4.0	2	0	1.27	zalve.bmp	walve.bmp
220.03600000000003	4.0	6	1	1.401	j.bmp	b.bmp
224.044	4.0	4	1	0.903	sharf.bmp	twove.bmp
228.052	4.0	3	1	0.933	chelm.bmp	swealm.bmp
232.06000000000003	4.0	5	1	1.231	blackcross.bmp	blackcross.bmp
236.068	4.0	5	1	1.499	blackcross.bmp	blackcross.bmp
240.076	4.4	2	0	2.094	plown.bmp	rown.bmp
244.48499999999999	4.4	5	1	1.464	blackcross.bmp	blackcross.bmp
248.89400000000003	4.4	5	1	1.237	blackcross.bmp	blackcross.bmp
253.302	4.4	2	0	1.02	glead.bmp	jead.bmp
257.71099999999996	4.4	3	1	0.784	shrune.bmp	hoon.bmp
262.12	4.4	3	1	1.086	pript.bmp	shrypt.bmp
266.529	4.4	6	1	0.813	g.bmp	h.bmp
270.93699999999995	4.4	4	1	1.176	splour.bmp	morth.bmp
275.346	4.4	5	1	1.995	blackcross.bmp	blackcross.bmp
279.755	4.4	4	0	1.19	learth.bmp	plost.bmp
284.164	4.8	4	1	1.318	neaf.bmp	shrease.bmp
288.97299999999996	4.8	4	1	1.401	scose.bmp	brost.bmp
293.78299999999996	4.8	1	1	0.999	plipt.bmp	bipt.bmp
298.592	4.8	6	1	1.205	o.bmp	p.bmp
303.402	4.8	5	1	1.371	blackcross.bmp	blackcross.bmp
308.21099999999996	4.8	4	1	1.06	spouth.bmp	zull.bmp
313.02099999999996	4.0	4	1	0.79	drose.bmp	crange.bmp
317.029	4.0	1	1	1.157	swault.bmp	lault.bmp
321.037	4.0	3	0	n/a	derb.bmp	shurb.bmp
325.04499999999996	4.0	3	0	n/a	nerge.bmp	yurge.bmp
329.053	4.4	3	0	n/a	yeal.bmp	sheel.bmp
333.46099999999996	4.4	4	0	n/a	glough.bmp	vown.bmp
337.87	4.4	1	1	0.486	twide.bmp	stide.bmp
342.279	4.4	6	1	0.718	c.bmp	d.bmp
346.688	4.8	1	1	0.485	preash.bmp	sleash.bmp
351.49699999999996	4.8	6	1	0.702	k.bmp	t.bmp
356.30699999999996	4.8	2	0	0.731	zow.bmp	shrow.bmp
361.116	4.8	4	1	0.615	vead.bmp	slood.bmp
365.926	4.8	5	1	1.182	blackcross.bmp	blackcross.bmp
